TimeStamp_SmartWatch_Acc,TimeStamp_SmartWatch_Gyro,Acc_X,Acc_Y,Acc_Z,Gyro_X,Gyro_Y,Gyro_Z,Total Entry Count,486
193630189,193630208,-0.014,-0.338,9.743,0.001,-0.001,-0.002,,,193630227,193630246
193630227,193630690,0.096,-0.018,10.068,0.001,-0.005,0.000,,,193630265,193630728
193630227,193630689,0.003,0.001,0.000,0.062,-0.310,9.791,,,193630265,193630727
193630246,193630690,0.019,-0.295,9.815,0.001,-0.005,0.000,,,193630284,193630728
193630247,193630746,0.001,0.002,0.000,0.033,-0.334,9.748,,,193630285,193630784
193630266,193630748,0.033,-0.295,9.839,-0.000,0.002,0.000,,,193630304,193630786
193630305,193630766,0.001,-0.004,0.000,0.019,-0.295,9.767,,,193630343,193630804
193630324,193630786,0.043,-0.295,9.748,0.001,-0.002,0.001,,,193630362,193630824
193630344,193630805,-0.002,-0.003,0.000,-0.010,-0.276,9.839,,,193630382,193630843
193630324,193630805,0.043,-0.295,9.748,0.007,0.003,0.001,,,193630362,193630843
193630383,193630843,-0.004,-0.001,0.001,0.053,-0.305,9.728,,,193630421,193630881
193630324,193630844,0.043,-0.295,9.748,-0.002,0.002,0.000,,,193630362,193630882
193630421,193630862,-0.000,-0.001,0.000,0.005,-0.291,9.728,,,193630459,193630900
193630324,193630882,0.043,-0.295,9.748,0.001,-0.001,0.000,,,193630362,193630920
193630651,193631151,0.023,0.010,0.003,0.002,0.002,0.001,,,193630689,193631189
193630689,193631170,0.062,-0.310,9.791,-0.005,-0.262,9.771,,,193630727,193631208
193631131,193631190,0.024,-0.314,9.724,-0.008,0.001,0.000,,,193631169,193631228
193631208,193631208,0.033,-0.300,9.752,0.005,-0.001,-0.001,,,193631246,193631246
193631266,193631286,0.062,-0.319,9.728,-0.005,0.001,0.000,,,193631304,193631324
193631266,193631324,-0.002,0.001,0.001,0.048,-0.310,9.776,,,193631304,193631362
193631285,193631325,0.005,-0.305,9.762,0.001,-0.001,0.000,,,193631323,193631363
193631881,193631344,0.014,-0.314,9.776,0.043,-0.291,9.738,,,193631919,193631382
193631900,193631344,-0.005,-0.329,9.781,0.007,-0.001,-0.001,,,193631938,193631382
193631920,193631363,0.014,-0.358,9.738,0.014,-0.319,9.752,,,193631958,193631401
193631939,193631383,0.053,-0.286,9.762,0.003,0.001,-0.001,,,193631977,193631421
193631939,193631402,0.053,-0.286,9.762,0.005,-0.267,9.733,,,193631977,193631440
193631939,193631420,0.053,-0.286,9.762,-0.002,0.002,0.000,,,193631977,193631458
193631959,193631440,-0.002,-0.002,0.001,0.009,-0.257,9.767,,,193631997,193631478
193631997,193631440,0.001,0.001,0.000,-0.002,-0.001,-0.001,,,193632035,193631478
193631997,193631459,0.001,0.001,0.000,0.057,-0.291,9.800,,,193632035,193631497
193632016,193631479,-0.000,-0.001,0.001,0.007,0.002,-0.001,,,193632054,193631517
193632016,193631497,-0.000,-0.001,0.001,0.033,-0.300,9.743,,,193632054,193631535
193632016,193631497,-0.000,-0.001,0.001,0.003,-0.002,0.000,,,193632054,193631535
193632036,193631554,-0.003,0.001,0.000,0.033,-0.314,9.752,,,193632074,193631592
193632054,193631555,0.001,0.002,0.001,0.001,-0.001,-0.001,,,193632092,193631593
193632073,193631593,-0.000,-0.329,9.767,0.009,-0.276,9.771,,,193632111,193631631
193632073,193631594,-0.000,-0.329,9.767,0.002,-0.001,0.000,,,193632111,193631632
193632093,193631613,-0.010,-0.233,9.781,0.043,-0.334,9.791,,,193632131,193631651
193632093,193631613,-0.010,-0.233,9.781,0.001,0.001,0.001,,,193632131,193631651
193632112,193631632,-0.005,-0.343,9.824,0.024,-0.338,9.748,,,193632150,193631670
193632150,193631632,0.024,-0.276,9.767,0.024,-0.338,9.748,,,193632188,193631670
193632169,193631633,-0.034,-0.334,9.776,0.002,-0.001,0.000,,,193632207,193631671
193632151,193631633,0.006,0.002,-0.001,0.002,-0.001,0.000,,,193632189,193631671
193632169,193631633,-0.034,-0.334,9.776,0.002,-0.001,0.000,,,193632207,193631671
193632151,193631633,0.006,0.002,-0.001,0.002,-0.001,0.000,,,193632189,193631671
193632169,193631652,-0.034,-0.334,9.776,0.001,-0.002,-0.001,,,193632207,193631690
193632151,193631670,0.006,0.002,-0.001,0.001,-0.002,-0.001,,,193632189,193631708
193632169,193631690,-0.034,-0.334,9.776,-0.002,0.001,-0.001,,,193632207,193631728
193632151,193631709,0.006,0.002,-0.001,0.008,-0.001,-0.001,,,193632189,193631747
193632189,193631709,0.009,-0.291,9.704,0.008,-0.001,-0.001,,,193632227,193631747
193632189,193631728,-0.002,0.001,0.000,-0.000,0.001,-0.001,,,193632227,193631766
193632208,193631747,-0.000,-0.305,9.781,0.062,-0.314,9.776,,,193632246,193631785
193632228,193631766,-0.004,-0.001,0.000,0.038,-0.271,9.771,,,193632266,193631804
193632227,193631824,-0.024,-0.300,9.752,0.024,-0.295,9.767,,,193632265,193631862
193632228,193631862,-0.004,-0.001,0.000,-0.067,-0.257,9.733,,,193632266,193631900
193632266,193632613,-0.048,-0.310,9.839,0.007,-0.002,0.001,,,193632304,193632651
193632266,193632708,0.001,-0.002,0.001,-0.005,-0.334,9.762,,,193632304,193632746
193632285,193632747,0.033,-0.348,9.829,0.003,-0.001,0.000,,,193632323,193632785
193632286,193632940,0.006,-0.002,0.000,0.002,-0.001,-0.002,,,193632324,193632978
193632304,193632977,0.009,-0.295,9.767,0.019,-0.334,9.786,,,193632342,193633015
193632305,193632978,0.001,-0.001,0.001,0.001,0.001,0.000,,,193632343,193633016
193632344,193632997,0.062,-0.358,9.819,0.005,-0.305,9.757,,,193632382,193633035
193632344,193633016,-0.003,0.001,-0.001,-0.002,0.002,0.000,,,193632382,193633054
193632382,193633054,-0.019,-0.319,9.786,0.057,-0.281,9.781,,,193632420,193633092
193632363,193633035,0.005,-0.002,0.000,0.002,0.001,-0.001,,,193632401,193633073
193632420,193633073,0.029,-0.310,9.810,-0.005,-0.338,9.767,,,193632458,193633111
193632382,193633074,0.008,0.001,-0.001,0.006,0.001,0.000,,,193632420,193633112
193632420,193633363,0.029,-0.310,9.810,0.001,-0.001,0.000,,,193632458,193633401
193632440,193633516,-0.010,0.002,0.000,-0.010,-0.300,9.762,,,193632478,193633554
193632766,193633574,-0.000,-0.310,9.728,-0.013,-0.001,0.000,,,193632804,193633612
193632747,193633612,0.003,-0.001,0.000,0.029,-0.319,9.752,,,193632785,193633650
193632785,193633631,0.009,-0.334,9.815,0.001,-0.001,-0.001,,,193632823,193633669
193632824,193633631,-0.000,0.003,0.000,-0.000,-0.267,9.786,,,193632862,193633669
193632862,193633631,-0.010,-0.286,9.752,0.001,-0.001,-0.001,,,193632900,193633669
193633131,193633650,0.038,-0.295,9.791,-0.005,-0.295,9.791,,,193633169,193633688
193633228,193633708,0.001,-0.001,0.000,0.002,-0.001,0.000,,,193633266,193633746
193633303,193633727,0.033,-0.276,9.800,0.029,-0.319,9.733,,,193633341,193633765
193633324,193633728,-0.000,0.001,0.000,0.005,-0.001,0.000,,,193633362,193633766
193633362,193633766,0.005,-0.305,9.786,-0.002,-0.001,-0.001,,,193633400,193633804
193633363,193633824,0.001,-0.001,0.000,0.005,-0.314,9.819,,,193633401,193633862
193633382,193633843,0.029,-0.319,9.839,0.008,-0.001,0.001,,,193633420,193633881
193633766,193633976,0.019,-0.367,9.791,0.038,-0.276,9.743,,,193633804,193634014
193633747,193633997,-0.002,0.002,-0.001,-0.000,0.002,0.000,,,193633785,193634035
193633766,193634015,0.019,-0.367,9.791,-0.000,-0.319,9.786,,,193633804,193634053
193634226,193633997,-0.014,-0.310,9.791,-0.000,0.002,0.000,,,193634264,193634035
193634402,193634034,-0.000,0.001,0.000,-0.010,-0.291,9.791,,,193634440,193634072
193634420,193634054,0.009,-0.281,9.752,-0.002,0.001,0.001,,,193634458,193634092
193634402,193634073,-0.000,0.001,0.000,0.048,-0.305,9.815,,,193634440,193634111
193634420,193634073,0.009,-0.281,9.752,0.001,-0.002,0.001,,,193634458,193634111
193634746,193634092,-0.029,-0.329,9.762,-0.005,-0.286,9.776,,,193634784,193634130
193634804,193634112,-0.005,-0.300,9.800,0.002,-0.002,0.000,,,193634842,193634150
193634823,193634150,0.086,-0.305,9.786,0.053,-0.300,9.776,,,193634861,193634188
193634823,193634151,0.086,-0.305,9.786,-0.005,0.001,0.000,,,193634861,193634189
193634843,193634169,0.002,0.001,0.001,0.009,-0.343,9.767,,,193634881,193634207
193634843,193634189,0.002,0.001,0.001,-0.000,0.001,0.000,,,193634881,193634227
193635265,193634226,0.005,-0.319,9.767,-0.014,-0.310,9.791,,,193635303,193634264
193635265,193634208,0.005,-0.319,9.767,0.002,0.001,-0.001,,,193635303,193634246
193635285,193634516,-0.000,-0.001,0.000,-0.000,0.002,0.000,,,193635323,193634554
193635401,193634593,-0.014,-0.314,9.733,0.014,-0.343,9.795,,,193635439,193634631
193635440,193634594,-0.000,0.002,0.000,0.001,0.002,0.000,,,193635478,193634632
193635477,193634612,0.029,-0.238,9.786,-0.019,-0.262,9.805,,,193635515,193634650
193635497,193634594,-0.005,-0.329,9.815,0.001,0.002,0.000,,,193635535,193634632
193635497,193634612,-0.005,-0.329,9.815,-0.019,-0.262,9.805,,,193635535,193634650
193635497,193634594,-0.002,0.003,-0.001,0.001,0.002,0.000,,,193635535,193634632
193635536,193634612,-0.000,0.001,0.000,-0.019,-0.262,9.805,,,193635574,193634650
193636053,193634843,0.024,-0.324,9.781,0.002,0.001,0.001,,,193636091,193634881
193636073,193634978,-0.000,-0.001,0.000,0.002,0.001,0.001,,,193636111,193635016
193636112,193634978,0.005,-0.276,9.834,0.002,0.001,0.001,,,193636150,193635016
193636092,193634978,0.006,-0.001,0.000,0.002,0.001,0.001,,,193636130,193635016
193636112,193634996,0.005,-0.276,9.834,-0.034,-0.305,9.805,,,193636150,193635034
193636132,193634996,-0.009,-0.002,0.000,-0.034,-0.305,9.805,,,193636170,193635034
193636189,193635016,0.043,-0.329,9.795,0.024,-0.267,9.810,,,193636227,193635054
193636266,193634996,-0.005,-0.281,9.776,0.001,0.001,0.001,,,193636304,193635034
193636247,193635036,0.001,0.001,-0.001,-0.004,0.001,0.000,,,193636285,193635074
193636304,193635054,0.057,-0.305,9.748,0.009,-0.295,9.810,,,193636342,193635092
193636285,193635054,-0.000,-0.001,0.000,0.009,-0.295,9.810,,,193636323,193635092
193636343,193635093,0.009,-0.324,9.791,-0.000,0.002,0.000,,,193636381,193635131
193636364,193635150,-0.008,0.001,0.000,0.001,0.001,-0.001,,,193636402,193635188
193636382,193635247,0.062,-0.228,9.733,0.005,-0.002,0.000,,,193636420,193635285
193636383,193635459,-0.002,-0.001,0.000,0.002,0.002,0.000,,,193636421,193635497
193636401,193635497,-0.019,-0.348,9.752,-0.002,0.003,-0.001,,,193636439,193635535
193636401,193635632,0.008,-0.002,0.000,0.005,-0.002,0.000,,,193636439,193635670
193636517,193635689,0.033,-0.348,9.728,-0.000,-0.002,0.001,,,193636555,193635727
193636555,193635709,0.005,-0.262,9.781,0.001,-0.001,0.000,,,193636593,193635747
193636594,193635746,-0.048,-0.310,9.791,0.091,-0.300,9.839,,,193636632,193635784
193636613,193635746,-0.000,-0.001,0.000,0.091,-0.300,9.839,,,193636651,193635784
193636632,193635746,0.048,-0.224,9.910,0.091,-0.300,9.839,,,193636670,193635784
193636651,193635746,0.001,-0.004,0.000,0.091,-0.300,9.839,,,193636689,193635784
193636709,193635746,-0.003,0.003,0.000,0.091,-0.300,9.839,,,193636747,193635784
193636747,193635728,0.003,-0.004,0.000,0.002,-0.001,0.000,,,193636785,193635766
193636767,193635785,0.019,-0.305,9.834,-0.053,-0.262,9.815,,,193636805,193635823
193636766,193635824,0.002,0.003,0.000,-0.002,-0.001,0.000,,,193636804,193635862
193636843,193635862,0.053,-0.271,9.815,-0.005,-0.276,9.843,,,193636881,193635900
193637055,193635863,0.014,-0.372,9.805,-0.003,0.002,-0.001,,,193637093,193635901
193637247,193635880,-0.003,0.001,0.000,0.053,-0.348,9.709,,,193637285,193635918
193637284,193635863,0.005,-0.353,9.829,-0.003,0.002,-0.001,,,193637322,193635901
193637458,193635938,0.057,-0.300,9.786,0.009,-0.276,9.800,,,193637496,193635976
193637765,193635919,-0.010,-0.338,9.853,0.001,0.001,-0.001,,,193637803,193635957
193637823,193635938,0.003,0.001,-0.001,0.009,-0.276,9.800,,,193637861,193635976
193637842,193635939,-0.010,-0.286,9.815,-0.002,0.001,0.000,,,193637880,193635977
193637901,193635957,-0.003,0.001,0.000,-0.043,-0.362,9.776,,,193637939,193635995
193637919,193635939,0.019,-0.343,9.786,-0.002,0.001,0.000,,,193637957,193635977
193637901,193635957,-0.003,0.001,0.000,-0.043,-0.362,9.776,,,193637939,193635995
193637977,193635939,-0.038,-0.353,9.829,-0.002,0.001,0.000,,,193638015,193635977
193637977,193636189,-0.038,-0.353,9.829,-0.000,0.001,-0.001,,,193638015,193636227
193637977,193636978,0.003,-0.001,-0.001,0.002,0.001,-0.001,,,193638015,193637016
193637977,193637055,-0.038,-0.353,9.829,0.014,-0.372,9.805,,,193638015,193637093
193637977,193637035,0.003,-0.001,-0.001,-0.004,0.001,0.001,,,193638015,193637073
193638053,193637401,0.105,-0.310,9.795,0.006,0.001,-0.001,,,193638091,193637439
193638035,193637632,-0.003,-0.001,0.001,-0.000,0.001,-0.002,,,193638073,193637670
193638053,193637977,0.105,-0.310,9.795,0.003,-0.001,-0.001,,,193638091,193638015
193638035,193638169,-0.003,-0.001,0.001,-0.003,0.002,0.000,,,193638073,193638207
193638053,193638303,0.105,-0.310,9.795,0.024,-0.310,9.872,,,193638091,193638341
193638035,193638323,-0.003,-0.001,0.001,-0.002,-0.001,0.000,,,193638073,193638361
193638111,193638343,0.014,-0.329,9.752,0.043,-0.305,9.791,,,193638149,193638381
193638112,193638323,-0.005,0.002,0.000,-0.002,-0.001,0.000,,,193638150,193638361
193638131,193638343,-0.005,-0.252,9.805,0.043,-0.305,9.791,,,193638169,193638381
193638746,193638381,0.009,-0.358,9.800,0.001,-0.001,-0.001,,,193638784,193638419
193639111,193638400,0.009,-0.329,9.810,-0.010,-0.324,9.795,,,193639149,193638438
193639226,193638381,0.009,-0.334,9.786,0.001,-0.001,-0.001,,,193639264,193638419
193639765,193638477,-0.014,-0.314,9.786,0.019,-0.324,9.795,,,193639803,193638515
193639784,193638458,0.014,-0.305,9.805,-0.002,-0.001,-0.001,,,193639822,193638496
193639881,193638496,0.005,0.002,0.000,-0.019,-0.305,9.776,,,193639919,193638534
193639899,193638497,0.048,-0.338,9.843,0.001,0.002,-0.001,,,193639937,193638535
193639919,193638534,-0.008,0.002,0.000,0.038,-0.314,9.791,,,193639957,193638572
193639918,193638535,0.005,-0.281,9.848,-0.009,0.001,0.000,,,193639956,193638573
193640188,193638554,-0.019,-0.314,9.810,0.048,-0.291,9.781,,,193640226,193638592
193640246,193638535,-0.006,0.002,-0.001,-0.009,0.001,0.000,,,193640284,193638573
193640303,193638554,0.005,-0.281,9.786,0.048,-0.291,9.781,,,193640341,193638592
193640324,193638593,-0.000,0.002,0.001,0.002,0.001,0.000,,,193640362,193638631
193640343,193638630,-0.000,-0.358,9.776,0.005,-0.314,9.786,,,193640381,193638668
193640324,193638612,-0.000,0.002,0.001,-0.002,0.002,0.000,,,193640362,193638650
193640343,193638669,-0.000,-0.358,9.776,-0.005,-0.338,9.762,,,193640381,193638707
193640324,193638669,-0.000,0.002,0.001,-0.000,0.001,-0.001,,,193640362,193638707
193640343,193638688,-0.000,-0.358,9.776,0.062,-0.238,9.776,,,193640381,193638726
193640362,193638669,-0.000,0.001,0.000,-0.000,0.001,-0.001,,,193640400,193638707
193640399,193638726,0.019,-0.291,9.786,-0.024,-0.257,9.800,,,193640437,193638764
193640476,193638727,-0.010,-0.334,9.781,-0.006,0.002,-0.001,,,193640514,193638765
193640477,193638843,-0.000,0.001,0.000,-0.005,0.003,-0.001,,,193640515,193638881
193640496,193638900,0.029,-0.329,9.824,0.033,-0.377,9.848,,,193640534,193638938
193640477,193638900,-0.000,0.001,0.000,0.033,-0.377,9.848,,,193640515,193638938
193640496,193638900,0.029,-0.329,9.824,0.008,0.002,-0.001,,,193640534,193638938
193640496,193638920,-0.003,0.001,-0.001,0.002,0.002,-0.001,,,193640534,193638958
193640534,193638938,0.024,-0.348,9.815,-0.024,-0.324,9.805,,,193640572,193638976
193640515,193638920,-0.004,0.001,-0.001,0.002,0.002,-0.001,,,193640553,193638958
193640534,193638996,0.024,-0.348,9.815,0.024,-0.329,9.767,,,193640572,193639034
193640515,193638996,-0.004,0.001,-0.001,0.001,0.001,0.000,,,193640553,193639034
193640573,193639034,0.019,-0.338,9.800,-0.000,-0.291,9.815,,,193640611,193639072
193640593,193639016,0.001,-0.002,0.000,0.005,-0.001,0.000,,,193640631,193639054
193640612,193639150,-0.010,-0.362,9.862,-0.003,0.001,0.001,,,193640650,193639188
193640612,193639304,-0.000,0.001,0.000,-0.003,0.001,0.000,,,193640650,193639342
193640630,193639400,0.024,-0.295,9.810,-0.024,-0.358,9.800,,,193640668,193639438
193640612,193639439,-0.000,0.001,0.000,0.006,-0.001,0.000,,,193640650,193639477
193640649,193639458,-0.029,-0.324,9.824,-0.038,-0.305,9.795,,,193640687,193639496
193640650,193639458,-0.006,0.003,-0.001,0.001,0.001,0.000,,,193640688,193639496
193640688,193639553,0.005,-0.324,9.776,-0.005,-0.286,9.800,,,193640726,193639591
193640689,193639534,-0.002,0.001,0.000,0.007,-0.001,0.000,,,193640727,193639572
193640708,193639630,0.024,-0.291,9.839,0.100,-0.329,9.781,,,193640746,193639668
193640727,193639669,0.003,0.001,0.000,-0.000,0.001,0.000,,,193640765,193639707
193640765,193639726,-0.029,-0.319,9.791,-0.043,-0.252,9.810,,,193640803,193639764
193640746,193639727,-0.002,0.001,0.000,0.002,0.001,0.000,,,193640784,193639765
193640765,193639784,-0.029,-0.319,9.791,0.002,-0.001,-0.001,,,193640803,193639822
193640746,193640091,-0.002,0.001,0.000,0.002,0.002,-0.001,,,193640784,193640129
193640822,193640168,-0.000,-0.362,9.815,0.053,-0.324,9.848,,,193640860,193640206
193640804,193640188,-0.002,-0.002,-0.001,0.002,0.002,0.000,,,193640842,193640226
193640861,193640400,-0.024,-0.305,9.829,0.001,0.001,0.000,,,193640899,193640438
193640842,193640458,-0.000,0.001,-0.001,0.005,-0.319,9.795,,,193640880,193640496
193640899,193640439,0.053,-0.329,9.776,0.001,-0.001,0.001,,,193640937,193640477
193641033,193640880,-0.010,-0.329,9.800,-0.003,0.001,-0.001,,,193641071,193640918
193641016,193640918,-0.002,-0.001,0.001,0.014,-0.319,9.762,,,193641054,193640956
193641033,193640938,-0.010,-0.329,9.800,0.001,0.001,0.001,,,193641071,193640976
193641035,193640957,0.003,0.001,0.001,0.009,-0.334,9.810,,,193641073,193640995
193641091,193640938,-0.010,-0.271,9.791,0.001,0.001,0.001,,,193641129,193640976
193641073,193640957,-0.000,0.001,-0.001,0.009,-0.334,9.810,,,193641111,193640995
193641091,193640938,-0.010,-0.271,9.791,0.001,0.001,0.001,,,193641129,193640976
193641112,193640957,0.003,-0.001,0.001,0.009,-0.334,9.810,,,193641150,193640995
193641130,193640996,0.005,-0.257,9.795,-0.003,0.001,0.000,,,193641168,193641034
193641112,193641689,0.003,-0.001,0.001,0.001,0.002,0.000,,,193641150,193641727
193641130,193641765,0.005,-0.257,9.795,0.009,-0.271,9.815,,,193641168,193641803
193641207,193641746,-0.003,-0.001,0.000,-0.002,0.002,0.000,,,193641245,193641784
193641226,193641784,-0.034,-0.291,9.771,0.029,-0.329,9.795,,,193641264,193641822
193641245,193641785,0.002,0.002,-0.001,-0.000,0.002,-0.001,,,193641283,193641823
193641342,193641803,0.014,-0.295,9.767,-0.034,-0.382,9.762,,,193641380,193641841
193641323,193641861,-0.002,-0.001,0.000,0.006,-0.002,0.000,,,193641361,193641899
193641361,193641880,-0.005,-0.310,9.824,0.009,-0.319,9.771,,,193641399,193641918
193641400,193641919,-0.004,0.002,0.001,0.005,0.002,0.000,,,193641438,193641957
193641419,193642169,0.115,-0.295,9.805,0.002,-0.002,0.001,,,193641457,193642207
193641400,193642206,-0.004,0.002,0.001,-0.038,-0.367,9.767,,,193641438,193642244
193641419,193642207,0.115,-0.295,9.805,-0.009,0.002,-0.001,,,193641457,193642245
193641477,193642226,-0.000,0.002,-0.001,0.057,-0.314,9.819,,,193641515,193642264
193641496,193642207,-0.029,-0.310,9.819,-0.009,0.002,-0.001,,,193641534,193642245
193641535,193642226,0.006,-0.001,0.000,0.057,-0.314,9.819,,,193641573,193642264
193641573,193642207,0.043,-0.281,9.791,-0.009,0.002,-0.001,,,193641611,193642245
193641593,193642226,-0.002,0.001,0.000,0.057,-0.314,9.819,,,193641631,193642264
193641611,193642265,0.009,-0.291,9.815,0.009,-0.001,0.003,,,193641649,193642303
193641593,193642302,-0.002,0.001,0.000,0.048,-0.319,9.800,,,193641631,193642340
193641611,193642283,0.009,-0.291,9.815,0.005,-0.001,-0.001,,,193641649,193642321
193641650,193642323,-0.003,-0.001,-0.001,-0.014,-0.300,9.810,,,193641688,193642361
193641707,193642342,0.029,-0.348,9.767,-0.002,-0.001,0.001,,,193641745,193642380
193642014,193642630,0.014,-0.310,9.829,-0.010,0.002,-0.001,,,193642052,193642668
193641995,193642764,-0.008,0.003,-0.001,0.014,-0.291,9.748,,,193642033,193642802
193642091,193642765,-0.000,-0.324,9.800,-0.000,0.001,0.000,,,193642129,193642803
193642073,193642783,0.005,-0.001,0.000,0.038,-0.367,9.795,,,193642111,193642821
193642091,193642822,-0.000,-0.324,9.800,0.002,0.001,-0.001,,,193642129,193642860
193642361,193643014,0.009,-0.386,9.791,-0.003,0.002,0.000,,,193642399,193643052
193642342,193643052,-0.002,-0.001,0.001,-0.019,-0.319,9.776,,,193642380,193643090
193642437,193643091,-0.043,-0.300,9.834,-0.002,0.001,0.000,,,193642475,193643129
193642419,193643110,-0.000,-0.001,0.000,0.033,-0.319,9.839,,,193642457,193643148
193642437,193643149,-0.043,-0.300,9.834,-0.000,0.001,0.000,,,193642475,193643187
193642457,193643458,0.001,0.001,0.000,0.005,0.001,-0.001,,,193642495,193643496
193642476,193643534,-0.038,-0.343,9.819,0.043,-0.267,9.752,,,193642514,193643572
193642457,193643573,0.001,0.001,0.000,-0.002,0.001,0.000,,,193642495,193643611
193642534,193643591,0.029,-0.267,9.724,-0.000,-0.314,9.752,,,193642572,193643629
193642534,193643630,-0.008,-0.001,0.000,0.008,-0.001,0.000,,,193642572,193643668
193642649,193643803,0.019,-0.334,9.829,-0.005,0.002,0.000,,,193642687,193643841
193642841,193643957,0.024,-0.338,9.776,0.003,0.001,-0.001,,,193642879,193643995
193642899,193643976,0.005,0.001,-0.001,0.043,-0.271,9.795,,,193642937,193644014
193642976,193643957,0.009,-0.271,9.776,0.003,0.001,-0.001,,,193643014,193643995
193643187,193644976,-0.019,-0.271,9.829,0.003,-0.001,-0.001,,,193643225,193645014
193643169,193644995,-0.004,0.003,0.000,0.053,-0.314,9.767,,,193643207,193645033
193643245,193644976,-0.005,-0.334,9.767,0.003,-0.001,-0.001,,,193643283,193645014
193643226,193644995,-0.004,0.004,0.000,0.053,-0.314,9.767,,,193643264,193645033
193643264,193645033,-0.005,-0.310,9.815,-0.000,0.001,0.000,,,193643302,193645071
193643284,193645053,-0.003,0.001,0.000,0.067,-0.334,9.795,,,193643322,193645091
193643303,193645033,-0.067,-0.343,9.776,-0.000,0.001,0.000,,,193643341,193645071
193643284,193645053,-0.003,0.001,0.000,0.067,-0.334,9.795,,,193643322,193645091
193643303,193645033,-0.067,-0.343,9.776,-0.000,0.001,0.000,,,193643341,193645071
193643362,193645053,-0.006,0.001,-0.001,0.067,-0.334,9.795,,,193643400,193645091
193643380,193645033,-0.024,-0.329,9.815,-0.000,0.001,0.000,,,193643418,193645071
193643362,193645053,-0.006,0.001,-0.001,0.067,-0.334,9.795,,,193643400,193645091
193643380,193645072,-0.024,-0.329,9.815,-0.002,0.001,0.001,,,193643418,193645110
193643400,193645110,0.002,-0.001,-0.001,0.072,-0.386,9.810,,,193643438,193645148
193643438,193645111,0.033,-0.334,9.819,0.002,0.001,0.001,,,193643476,193645149
193643726,193645129,0.029,-0.324,9.843,0.033,-0.353,9.800,,,193643764,193645167
193643708,193645111,-0.000,0.001,-0.001,0.002,0.001,0.001,,,193643746,193645149
193643726,193645149,0.029,-0.324,9.843,-0.003,0.001,0.000,,,193643764,193645187
193643765,193645283,0.003,-0.001,-0.001,-0.005,-0.362,9.786,,,193643803,193645321
193643784,193645264,0.019,-0.271,9.767,-0.003,0.003,0.000,,,193643822,193645302
193643785,193645322,-0.004,-0.001,0.000,0.014,-0.334,9.786,,,193643823,193645360
193643803,193645303,0.005,-0.324,9.824,-0.002,-0.002,0.000,,,193643841,193645341
193643861,193645322,0.033,-0.276,9.805,0.014,-0.334,9.786,,,193643899,193645360
193643841,193645303,0.003,-0.002,0.001,-0.002,-0.002,0.000,,,193643879,193645341
193643861,193645707,0.033,-0.276,9.805,-0.005,0.001,0.000,,,193643899,193645745
193643841,193645726,0.003,-0.002,0.001,0.024,-0.377,9.834,,,193643879,193645764
193643899,193645765,-0.029,-0.338,9.757,-0.000,0.002,0.001,,,193643937,193645803
193643900,193645803,0.001,-0.001,0.000,0.014,-0.367,9.810,,,193643938,193645841
193643918,193645784,-0.043,-0.372,9.810,-0.000,0.001,0.000,,,193643956,193645822
193643900,193645803,0.001,-0.001,0.000,0.014,-0.367,9.810,,,193643938,193645841
193643918,193645803,-0.043,-0.372,9.810,-0.000,0.001,0.000,,,193643956,193645841
193643900,193645841,0.001,-0.001,0.000,0.014,-0.300,9.762,,,193643938,193645879
193643918,193645860,-0.043,-0.372,9.810,0.006,-0.001,0.000,,,193643956,193645898
193643938,193645879,0.006,-0.002,-0.001,0.067,-0.324,9.829,,,193643976,193645917
193643976,193645860,0.043,-0.271,9.795,0.006,-0.001,0.000,,,193644014,193645898
193643976,193645879,0.043,-0.271,9.795,0.067,-0.324,9.829,,,193644014,193645917
193643957,193645899,0.003,0.001,-0.001,-0.004,0.001,0.000,,,193643995,193645937
193643995,193645918,0.024,-0.310,9.771,0.005,-0.334,9.810,,,193644033,193645956
193644034,193645899,0.003,-0.001,0.001,-0.004,0.001,0.000,,,193644072,193645937
193644052,193645956,-0.034,-0.343,9.795,0.053,-0.343,9.800,,,193644090,193645994
193644054,193645938,0.003,-0.001,0.000,-0.004,0.002,0.000,,,193644092,193645976
193644072,193645976,0.072,-0.343,9.839,-0.005,-0.353,9.805,,,193644110,193646014
193644073,193645976,0.003,-0.002,0.001,0.003,0.001,0.000,,,193644111,193646014
193644091,193646014,0.019,-0.291,9.795,0.048,-0.329,9.791,,,193644129,193646052
193644092,193645995,-0.002,0.002,0.001,-0.000,0.001,0.000,,,193644130,193646033
193644111,193646071,0.014,-0.310,9.810,0.009,-0.257,9.767,,,193644149,193646109
193644110,193646052,0.001,0.002,0.001,0.006,-0.003,0.001,,,193644148,193646090
193644111,193646071,0.014,-0.310,9.810,0.009,-0.257,9.767,,,193644149,193646109
193644110,193646052,0.001,0.002,0.001,0.006,-0.003,0.001,,,193644148,193646090
193644111,193646071,0.014,-0.310,9.810,0.009,-0.257,9.767,,,193644149,193646109
193644110,193646130,0.001,0.002,0.001,0.002,-0.002,0.000,,,193644148,193646168
193644111,193646148,0.014,-0.310,9.810,-0.010,-0.362,9.819,,,193644149,193646186
193644149,193646169,0.003,-0.001,-0.001,-0.000,0.002,0.000,,,193644187,193646207
193644168,193646186,0.053,-0.300,9.776,0.033,-0.334,9.767,,,193644206,193646224
193644169,193646169,0.003,-0.002,0.000,-0.000,0.002,0.000,,,193644207,193646207
193644187,193646206,0.024,-0.338,9.805,0.019,-0.310,9.800,,,193644225,193646244
193644169,193646245,0.003,-0.002,0.000,0.006,-0.001,0.000,,,193644207,193646283
193644169,193646283,0.003,-0.002,0.000,-0.005,-0.252,9.791,,,193644207,193646321
193644187,193646264,0.024,-0.338,9.805,0.006,0.002,-0.001,,,193644225,193646302
193644187,193646283,0.024,-0.338,9.805,-0.005,-0.252,9.791,,,193644225,193646321
193644169,193646304,0.003,-0.002,0.000,-0.006,0.003,-0.001,,,193644207,193646342
193644187,193646321,0.024,-0.338,9.805,0.029,-0.314,9.791,,,193644225,193646359
193644169,193646323,0.003,-0.002,0.000,0.002,0.002,-0.001,,,193644207,193646361
193644187,193646341,0.024,-0.338,9.805,0.019,-0.338,9.757,,,193644225,193646379
193644207,193646323,-0.000,0.001,-0.001,0.002,0.002,-0.001,,,193644245,193646361
193644225,193646341,0.024,-0.291,9.786,0.019,-0.338,9.757,,,193644263,193646379
193644226,193646342,0.003,0.002,0.000,0.002,-0.001,0.000,,,193644264,193646380
193644457,193646418,0.009,-0.329,9.805,0.005,-0.252,9.791,,,193644495,193646456
193644439,193646399,-0.002,0.001,0.000,-0.005,0.002,0.000,,,193644477,193646437
193644457,193646418,0.009,-0.329,9.805,0.005,-0.252,9.791,,,193644495,193646456
193644439,193646457,-0.002,0.001,0.000,-0.008,0.002,0.000,,,193644477,193646495
193644457,193646476,0.009,-0.329,9.805,-0.019,-0.348,9.834,,,193644495,193646514
193644477,193646457,-0.000,0.001,-0.001,-0.008,0.002,0.000,,,193644515,193646495
193644515,193646496,0.033,-0.348,9.805,0.076,-0.324,9.771,,,193644553,193646534
193644496,193646534,-0.002,0.001,0.000,-0.005,0.002,0.000,,,193644534,193646572
193644515,193646572,0.033,-0.348,9.805,0.005,-0.267,9.795,,,193644553,193646610
193644496,193646573,-0.002,0.001,0.000,0.001,0.002,0.001,,,193644534,193646611
193644515,193646630,0.033,-0.348,9.805,-0.014,-0.319,9.791,,,193644553,193646668
193644496,193646650,-0.002,0.001,0.000,0.007,-0.002,0.001,,,193644534,193646688
193644515,193646687,0.033,-0.348,9.805,-0.005,-0.305,9.771,,,193644553,193646725
193644496,193646668,-0.002,0.001,0.000,0.008,-0.002,-0.001,,,193644534,193646706
193644515,193646765,0.033,-0.348,9.805,-0.014,-0.372,9.810,,,193644553,193646803
193644496,193646746,-0.002,0.001,0.000,-0.003,0.002,-0.001,,,193644534,193646784
193644515,193646765,0.033,-0.348,9.805,-0.014,-0.372,9.810,,,193644553,193646803
193644554,193646746,-0.004,0.001,0.000,-0.003,0.002,-0.001,,,193644592,193646784
193644573,193646803,-0.024,-0.291,9.805,0.005,-0.295,9.771,,,193644611,193646841
193644554,193646804,-0.004,0.001,0.000,-0.002,0.002,0.000,,,193644592,193646842
193644573,193646803,-0.024,-0.291,9.805,0.005,-0.295,9.771,,,193644611,193646841
193644554,193646804,-0.004,0.001,0.000,-0.002,0.002,0.000,,,193644592,193646842
193644573,193646803,-0.024,-0.291,9.805,0.005,-0.295,9.771,,,193644611,193646841
193644554,193646860,-0.004,0.001,0.000,0.005,-0.001,0.000,,,193644592,193646898
193644592,193646879,0.067,-0.300,9.810,0.009,-0.281,9.791,,,193644630,193646917
193644592,193646860,-0.006,0.001,0.000,0.005,-0.001,0.000,,,193644630,193646898
193644592,193646879,0.067,-0.300,9.810,0.009,-0.281,9.791,,,193644630,193646917
193644612,193646860,-0.013,-0.001,0.000,0.005,-0.001,0.000,,,193644650,193646898
193644650,193646937,-0.029,-0.262,9.791,-0.034,-0.300,9.810,,,193644688,193646975
193644630,193646938,-0.005,0.002,0.000,-0.008,0.002,0.000,,,193644668,193646976
193644650,193646937,-0.029,-0.262,9.791,-0.034,-0.300,9.810,,,193644688,193646975
193644630,193646938,-0.005,0.002,,-0.008,0.002,0.000,,,193644668,193646976
193645167,193646995,0.024,-0.305,9.752,-0.072,-0.295,9.853,,,193645205,193647033
193645149,193646996,-0.003,0.001,0.000,0.002,0.002,-0.001,,,193645187,193647034
193645167,193647033,0.024,-0.305,9.752,0.048,-0.324,9.776,,,193645205,193647071
193645322,193647052,0.014,-0.334,9.786,0.001,0.001,0.000,,,193645360,193647090
193645303,193647071,-0.002,-0.002,0.000,0.024,-0.286,9.800,,,193645341,193647109
193645380,193647072,0.019,-0.324,9.791,-0.004,0.002,0.000,,,193645418,193647110
193645361,193647110,-0.002,0.002,0.000,0.067,-0.348,9.819,,,193645399,193647148
193645380,193647130,0.019,-0.324,9.791,-0.010,0.001,-0.001,,,193645418,193647168
193645380,193647148,-0.000,-0.001,0.000,-0.014,-0.300,9.767,,,193645418,193647186
193645438,193647130,0.033,-0.314,9.819,-0.010,0.001,-0.001,,,193645476,193647168
193645438,193647206,-0.000,-0.001,0.000,-0.005,-0.295,9.786,,,193645476,193647244
193645476,193647245,-0.029,-0.314,9.795,0.007,-0.001,0.001,,,193645514,193647283
193645457,193647321,-0.000,0.001,0.000,-0.000,-0.281,9.805,,,193645495,193647359
193645515,193647322,0.124,-0.319,9.834,-0.004,-0.001,-0.001,,,193645553,193647360
193645515,193647457,-0.002,-0.001,0.001,-0.005,0.001,0.000,,,193645553,193647495
193645533,193647476,0.067,-0.314,9.733,0.038,-0.324,9.819,,,193645571,193647514
193645515,193647515,-0.002,-0.001,0.001,-0.004,0.002,0.000,,,193645553,193647553
193645533,193647534,0.067,-0.314,9.733,0.072,-0.281,9.829,,,193645571,193647572
193645515,193647515,-0.002,-0.001,0.001,-0.004,0.002,0.000,,,193645553,193647553
193645533,193647534,0.067,-0.314,9.733,0.072,-0.281,9.829,,,193645571,193647572
193645515,193647515,-0.002,-0.001,0.001,-0.004,0.002,0.000,,,193645553,193647553
193645591,193647534,0.014,-0.353,9.815,0.072,-0.281,9.829,,,193645629,193647572
193645592,193647611,0.002,0.002,-0.001,-0.002,0.003,0.001,,,193645630,193647649
193645611,193647841,0.043,-0.338,9.776,0.002,-0.002,-0.001,,,193645649,193647879
193645592,193647919,0.002,0.002,-0.001,-0.002,0.001,-0.001,,,193645630,193647957
193645630,193647936,-0.043,-0.362,9.815,0.053,-0.295,9.795,,,193645668,193647974
193645707,193647937,-0.005,0.001,0.000,-0.004,0.001,-0.001,,,193645745,193647975
193645726,193647936,0.024,-0.377,9.834,0.053,-0.295,9.795,,,193645764,193647974
193647341,193647937,0.096,-0.334,9.834,-0.004,0.001,-0.001,,,193647379,193647975
193647322,193647936,-0.004,-0.001,-0.001,0.053,-0.295,9.795,,,193647360,193647974
193647341,193647937,0.096,-0.334,9.834,-0.004,0.001,-0.001,,,193647379,193647975
193647322,193647936,-0.004,-0.001,-0.001,0.053,-0.295,9.795,,,193647360,193647974
193647418,193647937,0.019,-0.329,9.805,-0.004,0.001,-0.001,,,193647456,193647975
193647400,193647936,0.003,0.002,0.000,0.053,-0.295,9.795,,,193647438,193647974
193647418,193647937,0.019,-0.329,9.805,-0.004,0.001,-0.001,,,193647456,193647975
193647400,193647956,0.003,0.002,0.000,-0.005,-0.343,9.786,,,193647438,193647994
193647438,193647976,-0.019,-0.305,9.805,-0.008,0.001,0.000,,,193647476,193648014
193647457,193648014,-0.005,0.001,0.000,-0.006,0.003,-0.001,,,193647495,193648052
193647476,193648033,0.038,-0.324,9.819,0.053,-0.329,9.815,,,193647514,193648071
193647668,193648034,-0.005,-0.305,9.771,-0.005,0.001,0.000,,,193647706,193648072
193647649,193648052,-0.004,-0.001,-0.001,-0.000,-0.310,9.843,,,193647687,193648090
193647668,193648052,-0.005,-0.305,9.771,0.002,-0.003,0.000,,,193647706,193648090
193647688,193648071,-0.002,-0.001,-0.001,0.014,-0.372,9.786,,,193647726,193648109
193647745,193648052,0.057,-0.271,9.800,0.002,-0.003,0.000,,,193647783,193648090
193647726,193648071,-0.004,0.001,0.000,0.014,-0.372,9.786,,,193647764,193648109
193647745,193648130,0.057,-0.271,9.800,-0.002,0.001,0.000,,,193647783,193648168
193647765,193648148,0.005,0.001,-0.001,-0.010,-0.348,9.810,,,193647803,193648186
193647822,193648130,0.014,-0.262,9.781,-0.002,0.001,0.000,,,193647860,193648168
193647822,193648167,-0.004,0.002,0.000,0.038,-0.334,9.810,,,193647860,193648205
193647841,193648149,0.029,-0.348,9.781,-0.002,0.001,-0.001,,,193647879,193648187
193647822,193648167,-0.004,0.002,0.000,0.038,-0.334,9.810,,,193647860,193648205
193647860,193648169,0.043,-0.281,9.714,0.002,0.001,-0.002,,,193647898,193648207
193647841,193648186,0.002,-0.002,-0.001,0.033,-0.329,9.810,,,193647879,193648224
193647860,193648187,0.043,-0.281,9.714,0.003,0.002,-0.001,,,193647898,193648225
193647898,193648225,0.029,-0.300,9.743,0.038,-0.348,9.776,,,193647936,193648263
193648033,193648206,0.053,-0.329,9.815,-0.002,0.002,0.000,,,193648071,193648244
193648399,193648244,-0.019,-0.319,9.786,0.053,-0.343,9.829,,,193648437,193648282
193648400,193648803,-0.005,0.002,-0.001,-0.002,-0.001,-0.002,,,193648438,193648841
193648399,193648821,-0.019,-0.319,9.786,-0.014,-0.343,9.776,,,193648437,193648859
193648400,193648823,-0.005,0.002,-0.001,-0.006,0.001,-0.001,,,193648438,193648861
193648399,193648841,-0.019,-0.319,9.786,-0.043,-0.338,9.800,,,193648437,193648879
193648400,193648823,-0.005,0.002,-0.001,-0.006,0.001,-0.001,,,193648438,193648861
193648399,193648841,-0.019,-0.319,9.786,-0.043,-0.338,9.800,,,193648437,193648879
193648419,193648823,-0.009,0.001,-0.002,-0.006,0.001,-0.001,,,193648457,193648861
193648438,193648841,0.038,-0.310,9.757,-0.043,-0.338,9.800,,,193648476,193648879
193648438,193648823,-0.005,0.002,0.001,-0.006,0.001,-0.001,,,193648476,193648861
193648495,193648841,0.053,-0.257,9.791,-0.043,-0.338,9.800,,,193648533,193648879
193648476,193648823,0.009,-0.001,0.000,-0.006,0.001,-0.001,,,193648514,193648861
193648514,193648841,0.062,-0.286,9.781,-0.043,-0.338,9.800,,,193648552,193648879
193648496,193648860,0.003,0.002,0.001,0.005,-0.002,0.000,,,193648534,193648898
193648514,193648879,0.062,-0.286,9.781,0.024,-0.343,9.786,,,193648552,193648917
193648496,193648860,0.003,0.002,0.001,0.005,-0.002,0.000,,,193648534,193648898
193648496,193648957,0.003,0.002,0.001,0.005,-0.003,-0.001,,,193648534,193648995
193648514,193648976,0.062,-0.286,9.781,0.009,-0.281,9.795,,,193648552,193649014
193648534,193648957,-0.002,0.001,-0.001,0.005,-0.003,-0.001,,,193648572,193648995
193648572,193648976,0.009,-0.348,9.853,0.009,-0.281,9.795,,,193648610,193649014
193648554,193648957,0.005,-0.001,-0.001,0.005,-0.003,-0.001,,,193648592,193648995
193648572,193648976,0.009,-0.348,9.853,0.009,-0.281,9.795,,,193648610,193649014
193648573,193648995,0.011,-0.001,0.001,-0.000,0.001,0.001,,,193648611,193649033
193648610,193649014,0.024,-0.319,9.810,-0.062,-0.319,9.843,,,193648648,193649052
193648611,193649014,-0.004,-0.001,0.000,0.007,-0.002,0.001,,,193648649,193649052
193648629,193649032,0.024,-0.319,9.800,0.033,-0.338,9.752,,,193648667,193649070
193648611,193649014,-0.004,-0.001,0.000,0.007,-0.002,0.001,,,193648649,193649052
193648629,193649032,0.024,-0.319,9.800,0.033,-0.338,9.752,,,193648667,193649070
193648668,193649014,0.003,-0.001,0.000,0.007,-0.002,0.001,,,193648706,193649052
193648687,193649032,0.053,-0.295,9.767,0.033,-0.338,9.752,,,193648725,193649070
193648668,193649014,0.003,-0.001,0.000,0.007,-0.002,0.001,,,193648706,193649052
193648706,193649032,0.024,-0.343,9.757,0.033,-0.338,9.752,,,193648744,193649070
193648688,193649168,-0.002,0.001,0.000,-0.003,0.002,0.000,,,193648726,193649206
193649282,193649187,-0.014,-0.358,9.819,-0.010,-0.382,9.791,,,193649320,193649225
193649283,193649187,0.007,-0.001,-0.001,0.001,0.002,0.000,,,193649321,193649225
193649302,193649206,-0.014,-0.291,9.843,0.033,-0.286,9.771,,,193649340,193649244
193649283,193649187,0.007,-0.001,-0.001,0.001,0.002,0.000,,,193649321,193649225
193649321,193649206,-0.043,-0.358,9.757,0.033,-0.286,9.771,,,193649359,193649244
193649341,193649187,0.006,-0.002,0.001,0.001,0.002,0.000,,,193649379,193649225
193649360,193649206,-0.024,-0.353,9.748,0.033,-0.286,9.771,,,193649398,193649244
193649341,193649206,0.006,-0.002,0.001,-0.008,0.002,-0.001,,,193649379,193649244
193649379,193649224,0.053,-0.343,9.800,-0.038,-0.267,9.824,,,193649417,193649262
193649361,193649206,-0.004,0.003,0.001,-0.008,0.002,-0.001,,,193649399,193649244
193649379,193649224,0.053,-0.343,9.800,-0.038,-0.267,9.824,,,193649417,193649262
193649361,193649206,-0.004,0.003,0.001,-0.008,0.002,-0.001,,,193649399,193649244
193649379,193649224,0.053,-0.343,9.800,-0.038,-0.267,9.824,,,193649417,193649262
193649361,193649206,-0.004,0.003,0.001,-0.008,0.002,-0.001,,,193649399,193649244
193649379,193649572,0.053,-0.343,9.800,-0.000,0.003,0.000,,,193649417,193649610
193649380,193649610,-0.005,0.006,-0.001,0.005,-0.286,9.795,,,193649418,193649648
193649437,193649572,0.029,-0.324,9.958,-0.000,0.003,0.000,,,193649475,193649610
193649418,193649610,-0.014,0.002,-0.001,0.005,-0.286,9.795,,,193649456,193649648
193649437,193649611,0.029,-0.324,9.958,-0.009,-0.002,0.000,,,193649475,193649649
193649418,193649649,-0.014,0.002,-0.001,0.053,-0.310,9.791,,,193649456,193649687
193649495,193649668,-0.034,-0.382,9.685,-0.000,0.003,0.000,,,193649533,193649706
193649476,193649686,-0.000,-0.002,0.000,-0.024,-0.276,9.839,,,193649514,193649724
193649495,193649668,-0.034,-0.382,9.685,-0.000,0.003,0.000,,,193649533,193649706
193649476,193649686,-0.000,-0.002,0.000,-0.024,-0.276,9.839,,,193649514,193649724
193649495,193649668,-0.034,-0.382,9.685,-0.000,0.003,0.000,,,193649533,193649706
193649534,193649686,-0.008,0.006,-0.001,-0.024,-0.276,9.839,,,193649572,193649724
193649571,193649668,-0.034,-0.310,9.810,-0.000,0.003,0.000,,,193649609,193649706
193649553,193649782,0.005,-0.004,-0.001,0.009,-0.276,9.815,,,193649591,193649820
193649571,193649783,-0.034,-0.310,9.810,-0.000,0.002,0.001,,,193649609,193649821
193649553,193649821,0.005,-0.004,-0.001,-0.000,-0.324,9.834,,,193649591,193649859
193649571,193649822,-0.034,-0.310,9.810,-0.002,0.002,0.000,,,193649609,193649860
193649955,193649841,0.024,-0.324,9.800,-0.048,-0.314,9.839,,,193649993,193649879
193649937,193649822,0.001,0.002,-0.001,-0.002,0.002,0.000,,,193649975,193649860
193650013,193649841,-0.029,-0.334,9.810,-0.048,-0.314,9.839,,,193650051,193649879
193649995,193649880,-0.006,0.004,-0.001,0.007,-0.003,0.000,,,193650033,193649918
193650013,193649898,-0.029,-0.334,9.810,0.009,-0.300,9.829,,,193650051,193649936
193649995,193649880,-0.006,0.004,-0.001,0.007,-0.003,0.000,,,193650033,193649918
193650033,193650071,-0.029,-0.329,9.819,-0.000,0.007,-0.001,,,193650071,193650109
193650071,193650167,-0.000,0.007,-0.001,0.005,-0.286,9.767,,,193650109,193650205
193650091,193650149,0.043,-0.372,9.877,0.011,-0.002,0.000,,,193650129,193650187
