TimeStamp_SmartWatch_Acc,TimeStamp_SmartWatch_Gyro,Acc_X,Acc_Y,Acc_Z,Gyro_X,Gyro_Y,Gyro_Z,Total Entry Count,139
191605304,191613277,-9.323,-3.532,-0.279,-0.009,-0.255,-1.216,,,191605390,191613363
191613263,191605382,-0.108,-0.116,-1.250,-8.940,-5.184,0.181,,,191613349,191605468
191605304,191613277,-9.323,-3.532,-0.279,-0.009,-0.255,-1.216,,,191605390,191613363
191613277,191605420,-0.009,-0.255,-1.216,-9.198,-5.701,-0.408,,,191613363,191605506
191605343,191613347,-9.337,-4.207,0.205,-0.051,-0.318,-1.074,,,191605429,191613433
191606074,191605439,-7.810,-6.841,0.588,-8.547,-5.409,-0.183,,,191606160,191605525
191613902,191613360,-0.339,0.060,-0.139,-0.175,-0.288,-0.917,,,191613988,191613446
191606112,191605459,-7.115,-6.946,0.698,-8.174,-5.596,0.032,,,191606198,191605545
191613944,191613373,-0.367,0.012,-0.151,-0.304,-0.239,-0.770,,,191614030,191613459
191606150,191605478,-7.384,-7.286,1.095,-8.743,-5.912,-0.949,,,191606236,191605564
191613979,191613387,-0.467,0.034,-0.134,-0.390,-0.261,-0.591,,,191614065,191613473
191606189,191605497,-7.618,-7.233,0.511,-9.260,-5.864,-1.189,,,191606275,191605583
191606554,191613414,-7.192,-6.913,-0.461,-0.310,-0.333,-0.186,,,191606640,191613500
191614426,191605535,-0.007,0.114,0.012,-7.858,-6.276,-0.111,,,191614512,191605621
191606574,191613448,-6.924,-6.515,-0.198,0.025,-0.364,0.094,,,191606660,191613534
191606631,191605574,-7.671,-7.382,-1.012,-7.747,-7.099,,,,191606717,191605660
191614475,191613634,0.065,0.200,-0.001,0.410,0.191,-0.212,,,191614561,191613720
191606650,191605843,-7.628,-7.090,-0.820,-7.901,-5.830,1.244,,,191606736,191605929
191614489,191613659,-0.146,0.150,0.001,0.160,0.169,-0.300,,,191614575,191613745
191606670,191605843,-7.312,-6.822,-0.667,-7.901,-5.830,1.244,,,191606756,191605929
191614501,191613659,-0.141,0.142,-0.026,0.160,0.169,-0.300,,,191614587,191613745
191606689,191605881,-7.149,-6.975,-0.542,-7.848,-6.395,1.550,,,191606775,191605967
191614512,191613792,0.032,0.163,-0.060,0.002,0.092,-0.192,,,191614598,191613878
191606709,191614021,-7.115,-6.783,-0.413,-0.315,0.053,-0.063,,,191606795,191614107
191614512,191606227,0.032,0.163,-0.060,-7.427,-6.606,0.765,,,191614598,191606313
191606709,191614045,-7.115,-6.783,-0.413,-0.412,0.046,-0.062,,,191606795,191614131
191614512,191606266,0.032,0.163,-0.060,-7.029,-6.994,0.214,,,191614598,191606352
191606785,191614069,-6.981,-6.941,-0.547,-0.396,0.066,-0.041,,,191606871,191614155
191614654,191606305,0.064,0.189,-0.235,-8.001,-7.162,0.444,,,191614740,191606391
191606919,191614105,-6.876,-7.277,-1.155,-0.484,0.043,-0.100,,,191607005,191614191
191614786,191606382,-0.371,0.123,-0.310,-7.470,-7.123,-0.346,,,191614872,191606468
191606995,191614157,-7.096,-8.181,-1.107,-0.323,0.098,-0.052,,,191607081,191614243
191607092,191606420,-6.819,-8.287,-1.601,-7.312,-6.467,1.067,,,191607178,191606506
191614850,191614170,-0.349,0.199,-0.174,-0.150,0.139,-0.025,,,191614936,191614256
191607092,191606440,-6.819,-8.287,-1.601,-7.374,-5.337,-0.178,,,191607178,191606526
191614962,191614170,-0.194,0.138,0.102,-0.150,0.139,-0.025,,,191615048,191614256
191607227,191606440,-6.747,-8.344,-1.830,-7.374,-5.337,-0.178,,,191607313,191606526
191614997,191614208,0.296,0.154,0.201,-0.242,0.109,-0.042,,,191615083,191614294
191607266,191614220,-6.407,-7.243,-1.126,-0.262,0.099,-0.056,,,191607352,191614306
191607304,191614220,-6.435,-7.875,-1.141,-0.262,0.099,-0.056,,,191607390,191614306
191615081,191614220,0.135,0.225,0.098,-0.262,0.099,-0.056,,,191615167,191614306
191615110,191614220,0.745,0.015,0.062,-0.262,0.099,-0.056,,,191615196,191614306
191607381,191614220,-6.699,-7.765,-1.371,-0.262,0.099,-0.056,,,191607467,191614306
191607381,191606497,-6.699,-7.765,-1.371,-7.297,-7.396,-0.308,,,191607467,191606583
191607400,191606497,-6.493,-8.023,-1.217,-7.297,-7.396,-0.308,,,191607486,191606583
191615235,191606497,0.871,0.056,0.111,-7.297,-7.396,-0.308,,,191615321,191606583
191607458,191606497,-6.301,-7.794,-1.510,-7.297,-7.396,-0.308,,,191607544,191606583
191615420,191606497,1.010,0.106,0.180,-7.297,-7.396,-0.308,,,191615506,191606583
191607458,191606497,-6.301,-7.794,-1.510,-7.297,-7.396,-0.308,,,191607544,191606583
191615420,191614220,1.010,0.106,0.180,-0.262,0.099,-0.056,,,191615506,191614306
191607458,191606497,-6.301,-7.794,-1.510,-7.297,-7.396,-0.308,,,191607544,191606583
191607554,191614220,-6.823,-7.171,-0.815,-0.262,0.099,-0.056,,,191607640,191614306
191616036,191606497,0.205,0.125,0.083,-7.297,-7.396,-0.308,,,191616122,191606583
191608131,191614220,-7.211,-7.411,-0.322,-0.262,0.099,-0.0,,,191608217,191614306
191616053,191614451,0.094,0.087,0.045,0.079,0.225,-0.057,,,191616139,191614537
191616146,191614819,0.360,0.115,0.061,0.032,0.017,-0.167,,,191616232,191614905
191608439,191615066,-7.278,-7.588,-0.403,0.177,0.203,0.139,,,191608525,191615152
191608881,191615235,-7.360,-6.673,0.200,0.871,0.056,0.111,,,191608967,191615321
191616711,191615420,0.646,0.083,0.201,1.010,0.106,0.180,,,191616797,191615506
191608938,191607496,-7.604,-6.324,0.597,-6.785,-7.837,-2.290,,,191609024,191607582
191616736,191615628,0.228,0.026,0.048,0.653,0.051,0.234,,,191616822,191615714
191608995,191607496,-7.728,-6.252,0.784,-6.785,-7.837,-2.290,,,191609081,191607582
191616768,191615717,0.229,-0.001,-0.048,0.576,0.028,0.181,,,191616854,191615803
191609052,191616169,-7.633,-6.003,1.579,0.289,0.037,0.020,,,191609138,191616255
191616778,191608400,0.025,0.012,-0.071,-7.163,-7.320,-0.475,,,191616864,191608486
191609052,191608420,-7.633,-6.003,1.579,-7.202,-7.487,-0.528,,,191609138,191608506
191609515,191616213,-7.518,-6.549,1.110,0.651,-0.029,0.080,,,191609601,191616299
191617293,191608477,-0.057,-0.065,-0.043,-7.340,-7.540,-0.040,,,191617379,191608563
191609630,191616213,-7.498,-6.999,1.043,0.651,-0.029,0.080,,,191609716,191616299
191609977,191608555,-7.407,-7.387,1.229,-7.216,-6.807,0.808,,,191610063,191608641
191617822,191616372,-0.315,-0.005,-0.041,0.083,0.024,0.091,,,191617908,191616458
191610054,191608612,-7.465,-6.874,1.081,-7.388,-7.320,0.502,,,191610140,191608698
191617874,191616393,0.032,0.007,0.004,0.265,0.020,0.151,,,191617960,191616479
191610189,191608631,-7.388,-6.750,1.014,-7.527,-7.253,0.789,,,191610275,191608717
191617915,191616393,-0.152,0.048,0.013,0.265,0.020,0.151,,,191618001,191616479
191610247,191608631,-7.374,-7.267,1.043,-7.527,-7.253,0.789,,,191610333,191608717
191617951,191616393,-0.103,0.043,0.020,0.265,0.020,0.151,,,191618037,191616479
191610247,191608631,-7.374,-7.267,1.043,-7.527,-7.253,0.789,,,191610333,191608717
191618087,191616393,0.247,-0.059,-0.023,0.265,0.020,0.151,,,191618173,191616479
191610400,191608631,-7.360,-6.367,0.794,-7.527,-7.253,0.789,,,191610486,191608717
191610574,191616393,-7.436,-6.908,1.033,0.265,0.020,0.151,,,191610660,191616479
191618321,191608631,0.006,0.038,-0.038,-7.527,-7.253,0.789,,,191618407,191608717
191610670,191616393,-7.388,-6.984,0.971,0.265,0.020,0.151,,,191610756,191616479
191610880,191608631,-7.484,-7.138,0.736,-7.527,-7.253,0.789,,,191610966,191608717
191611034,191616393,-7.546,-6.707,1.119,0.265,0.020,0.151,,,191611120,191616479
191618722,191608631,-0.078,-0.030,-0.025,-7.527,-7.253,0.789,,,191618808,191608717
191611034,191616393,-7.546,-6.707,1.119,0.265,0.020,0.151,,,191611120,191616479
191618722,191608631,-0.078,-0.030,-0.025,-7.527,-7.253,0.789,,,191618808,191608717
191611092,191616557,-7.403,-7.004,1.023,0.401,0.055,0.140,,,191611178,191616643
191618860,191616778,0.078,0.035,-0.018,0.025,0.012,-0.071,,,191618946,191616864
191611169,191609072,-7.431,-7.391,0.942,-7.594,-6.252,1.588,,,191611255,191609158
191618910,191616902,0.155,0.059,0.001,-0.318,0.020,-0.137,,,191618996,191616988
191611169,191609168,-7.431,-7.391,0.942,-7.929,-6.338,1.368,,,191611255,191609254
191618910,191616919,0.155,0.059,0.001,-0.348,-0.033,-0.119,,,191618996,191617005
191611169,191609207,-7.431,-7.391,0.942,-7.968,-6.822,1.019,,,191611255,191609293
191618910,191616919,0.155,0.059,0.001,-0.348,-0.033,-0.119,,,191618996,191617005
191611169,191609207,-7.431,-7.391,0.942,-7.968,-6.822,1.019,,,191611255,191609293
191618910,191616919,0.155,0.059,0.001,-0.348,-0.033,-0.119,,,191618996,191617005
191611188,191609207,-7.532,-7.128,0.932,-7.968,-6.822,1.019,,,191611274,191609293
191611381,191616919,-7.182,-7.075,1.009,-0.348,-0.033,-0.119,,,191611467,191617005
191619240,191609225,0.040,0.023,-0.036,-7.886,-6.841,1.138,,,191619326,191609311
191611573,191617021,-7.431,-7.272,0.818,-0.356,-0.098,0.001,,,191611659,191617107
191611842,191609323,-7.293,-7.391,0.966,-7.384,-6.870,1.215,,,191611928,191609409
191619544,191617029,0.037,0.029,-0.007,-0.448,-0.083,-0.018,,,191619630,191617115
191611919,191609323,-7.273,-6.941,1.225,-7.384,-6.870,1.215,,,191612005,191609409
191619677,191617029,-0.048,-0.022,0.034,-0.448,-0.083,-0.018,,,191619763,191617115
191612034,191609342,-7.498,-7.253,0.841,-7.398,-7.315,1.225,,,191612120,191609428
191612169,191617093,-7.374,-7.257,1.263,-0.383,-0.059,-0.016,,,191612255,191617179
191612419,191609342,-7.158,-6.937,1.440,-7.398,-7.315,1.225,,,191612505,191609428
191620238,191617220,0.202,0.073,-0.095,-0.064,-0.028,0.002,,,191620324,191617306
191612554,191617384,-7.264,-7.224,1.158,0.020,-0.002,-0.053,,,191612640,191617470
191620296,191609687,0.041,0.044,-0.115,-7.508,-6.831,1.225,,,191620382,191609773
191612612,191617384,-7.130,-7.109,1.622,0.020,-0.002,-0.053,,,191612698,191617470
191620296,191609687,0.041,0.044,-0.115,-7.508,-6.831,1.225,,,191620382,191609773
191612708,191617384,-7.230,-7.032,1.201,0.020,-0.002,-0.053,,,191612794,191617470
191612938,191609687,-6.258,-7.502,1.320,-7.508,-6.831,1.225,,,191613024,191609773
191612938,191617384,-6.258,-7.502,1.320,0.020,-0.002,-0.053,,,191613024,191617470
191613745,191609745,7.077,-4.509,8.378,-7.709,-6.860,1.119,,,191613831,191609831
191613822,191617522,6.296,-4.820,7.234,-0.040,0.040,-0.003,,,191613908,191617608
191613861,191609803,6.349,-3.551,7.057,-7.585,-6.874,1.062,,,191613947,191609889
191613879,191617553,6.057,-4.490,7.602,-0.005,0.033,-0.038,,,191613965,191617639
191614034,191609938,5.320,-6.482,9.254,-7.613,-6.439,1.411,,,191614120,191610024
191614034,191617697,5.320,-6.482,9.254,-0.324,-0.013,-0.080,,,191614120,191617783
191621736,191609977,-0.192,2.323,0.861,-7.407,-7.387,1.229,,,191621822,191610063
191621736,191617697,-0.192,2.323,0.861,-0.324,-0.013,-0.080,,,191621822,191617783
191621736,191609977,-0.192,2.323,0.861,-7.407,-7.387,1.229,,,191621822,191610063
191614419,191617697,2.988,-6.678,9.307,-0.324,-0.013,-0.080,,,191614505,191617783
191614535,191618107,3.596,-1.315,9.393,-0.034,-0.048,-0.010,,,191614621,191618193
191614554,191618460,4.075,0.624,9.216,0.087,-0.071,0.004,,,191614640,191618546
191614554,191618717,4.075,0.624,9.216,0.008,-0.017,-0.018,,,191614640,191618803
191614554,191618910,4.075,0.624,9.216,0.155,0.059,0.001,,,191614640,191618996
191614554,191611226,4.075,0.624,9.216,-7.460,-7.071,0.980,,,191614640,191611312
191622332,191619049,0.671,-0.322,0.272,-0.021,0.015,-0.010,,,191622418,191619135
191614650,191611343,1.709,0.921,9.388,-7.479,-6.879,1.071,,,191614736,191611429
191614650,191619066,1.709,0.921,9.388,0.042,0.011,-0.036,,,191614736,191619152
191622332,191611362,0.671,-0.322,0.272,-7.374,-6.745,1.339,,,191622418,191611448
191622332,191619118,0.671,-0.322,0.272,0.028,0.037,-0.024,,,191622418,191619204
191614650,191619278,1.709,0.921,9.388,0.107,0.004,-0.037,,,191614736,191619364
191622397,191611727,0.575,-0.282,0.197,-7.422,-6.884,1.387,,,191622483,191611813
